# XDI/1.0 Demeter/0.9.26
# Demeter.output_filetype: multicolumn normalized mu(E)
# Element.symbol: Cu
# Element.edge: K
# Column.1: energy eV
# Column.2: cufoil_abs
# Column.3: cu2o_abs
# Column.4: cuo_abs
#------------------------
#  energy  cufoil_abs  cu2o_abs  cuo_abs
  8770.2000       0.11878081E-02  -0.49623885E-02   0.11766116E-01
  8780.2060       0.13697541E-02  -0.35231123E-02   0.11045502E-01
  8790.2090       0.11423089E-02  -0.25933135E-02   0.99899684E-02
  8800.2080       0.58782785E-03  -0.13843814E-02   0.10789645E-01
  8810.2050       0.64806725E-03  -0.11790152E-02   0.54036956E-02
  8820.2250       0.99420769E-03  -0.33323732E-02   0.30395637E-02
  8830.2140       0.33198826E-03  -0.10020088E-02   0.11687544E-02
  8840.1990       0.25373765E-03  -0.79208276E-03   0.15368544E-02
  8850.2080       0.11854759E-03  -0.54260590E-03  -0.12229191E-02
  8860.2130       0.31505575E-03  -0.14509479E-02  -0.15807908E-02
  8870.2140      -0.14780801E-03   0.93136446E-03  -0.65884996E-03
  8880.2100      -0.33626256E-03   0.13819428E-02  -0.33092885E-03
  8890.2030      -0.63621332E-03   0.17748515E-02  -0.17810738E-03
  8900.2190      -0.93222427E-03   0.25098945E-02   0.42623222E-03
  8910.2030      -0.53481887E-03   0.13263135E-02   0.94464724E-03
  8920.2110       0.22230435E-03  -0.21299257E-03   0.20408634E-02
  8930.2130       0.13456934E-02  -0.18418294E-02   0.33795820E-02
  8940.2120       0.24792176E-02  -0.20816493E-02   0.62109470E-02
  8950.2050       0.39278417E-02   0.13641625E-03   0.10061429E-01
  8950.7020       0.42797118E-02  -0.25289404E-03   0.10255583E-01
  8951.2000       0.43534673E-02   0.22717161E-03   0.10845111E-01
  8951.7260       0.45138311E-02   0.32754272E-03   0.11223485E-01
  8952.2230       0.46170930E-02   0.51712748E-03   0.11459120E-01
  8952.7210       0.48033750E-02   0.24724936E-03   0.12009025E-01
  8953.2190       0.50631912E-02   0.51835754E-04   0.12413415E-01
  8953.7170       0.50551990E-02   0.67232399E-03   0.13048158E-01
  8954.2150       0.52875015E-02   0.83779143E-03   0.13382594E-01
  8954.7130       0.54744768E-02   0.85730979E-03   0.13698485E-01
  8955.2110       0.55765365E-02   0.13039029E-02   0.14117968E-01
  8955.7090       0.55733935E-02   0.19360346E-02   0.14527446E-01
  8956.2070       0.59556338E-02   0.13505132E-02   0.14705756E-01
  8956.7050       0.61768514E-02   0.16179703E-02   0.15286472E-01
  8957.2030       0.63739217E-02   0.16918698E-02   0.15632260E-01
  8957.7010       0.65294248E-02   0.20219597E-02   0.16160364E-01
  8958.2000       0.67573592E-02   0.21149966E-02   0.16364206E-01
  8958.6980       0.69486886E-02   0.24643828E-02   0.16817930E-01
  8959.2250       0.72966841E-02   0.23888043E-02   0.17498774E-01
  8959.7230       0.76345860E-02   0.26385724E-02   0.17985318E-01
  8960.2220       0.78785535E-02   0.28537794E-02   0.18384233E-01
  8960.7210       0.81279632E-02   0.31516537E-02   0.18774427E-01
  8961.2190       0.84027245E-02   0.34574928E-02   0.19319400E-01
  8961.7180       0.87718862E-02   0.39382822E-02   0.20048263E-01
  8962.2170       0.91077955E-02   0.41529712E-02   0.20541631E-01
  8962.7160       0.94566731E-02   0.45373444E-02   0.21159041E-01
  8963.2150       0.98008870E-02   0.49207026E-02   0.21803808E-01
  8963.7130       0.10214211E-01   0.54106656E-02   0.22501160E-01
  8964.2130       0.10682823E-01   0.59507316E-02   0.23347834E-01
  8964.7120       0.11088204E-01   0.64040917E-02   0.23983972E-01
  8965.2110       0.11673714E-01   0.69191884E-02   0.24708260E-01
  8965.7100       0.12172129E-01   0.74577744E-02   0.25769483E-01
  8966.2090       0.12882333E-01   0.81236742E-02   0.26571320E-01
  8966.7090       0.13574517E-01   0.89004903E-02   0.27655128E-01
  8967.2080       0.14338072E-01   0.96722598E-02   0.28667960E-01
  8967.7070       0.14987208E-01   0.10325399E-01   0.30185800E-01
  8968.2070       0.15841310E-01   0.11144853E-01   0.31530095E-01
  8968.7060       0.16766476E-01   0.12032256E-01   0.32621293E-01
  8969.2060       0.17871256E-01   0.13076267E-01   0.33781431E-01
  8969.7060       0.19278181E-01   0.14431477E-01   0.35468881E-01
  8970.2050       0.21052205E-01   0.16012695E-01   0.37008226E-01
  8970.7050       0.22942406E-01   0.17615786E-01   0.38692046E-01
  8971.2050       0.24741049E-01   0.19254515E-01   0.40709780E-01
  8971.7050       0.27050670E-01   0.21143918E-01   0.43179259E-01
  8972.2050       0.29772104E-01   0.23362365E-01   0.45280711E-01
  8972.7050       0.33302901E-01   0.26064417E-01   0.47658703E-01
  8973.2050       0.38399569E-01   0.29874404E-01   0.51260928E-01
  8973.7050       0.45744802E-01   0.34700214E-01   0.56471384E-01
  8974.2050       0.55273280E-01   0.40462907E-01   0.63481685E-01
  8974.7060       0.67778138E-01   0.46328783E-01   0.72619258E-01
  8975.2060       0.86791851E-01   0.54346552E-01   0.80493340E-01
  8975.7060       0.11949389       0.65861038E-01   0.86664513E-01
  8976.2070       0.17945200       0.83055165E-01   0.89923096E-01
  8976.7070       0.28425943       0.10868903       0.94406446E-01
  8977.2080       0.37553803       0.19531684       0.10413155
  8977.7080       0.43622148       0.29174126       0.12106577
  8978.2090       0.46391694       0.41499328       0.13833411
  8978.7100       0.48716518       0.51968179       0.15491365
  8979.2110       0.47979356       0.59796264       0.17356248
  8979.7120       0.47150518       0.59982067       0.20249775
  8980.2120       0.46120743       0.54532686       0.25812125
  8980.7130       0.45824028       0.49025049       0.33186925
  8981.2140       0.46175311       0.46893833       0.41701482
  8981.7150       0.47446791       0.46561428       0.48898377
  8982.2170       0.49250937       0.47517348       0.53976575
  8982.7180       0.51583559       0.49230520       0.58464777
  8983.2190       0.54040889       0.51641007       0.61179954
  8983.7200       0.55404817       0.55712697       0.62176202
  8984.2220       0.57717816       0.58759034       0.62101270
  8984.7230       0.60079240       0.61522121       0.62331569
  8985.2250       0.62665054       0.64062246       0.63756466
  8985.7260       0.65621433       0.66750697       0.66089088
  8986.1990       0.68445526       0.69826903       0.69171615
  8986.7010       0.72255476       0.72962091       0.73037747
  8987.2030       0.77207885       0.76402283       0.77315769
  8987.7040       0.82018273       0.80688731       0.82044804
  8988.2060       0.86166207       0.84874117       0.87694802
  8988.7080       0.90135416       0.88740001       0.92769361
  8989.2100       0.93382211       0.93606589       0.96983831
  8989.7120       0.96780187       0.98273026        1.0037689
  8990.2140       0.99737096        1.0297285        1.0292907
  8990.7160        1.0205745        1.0675653        1.0493797
  8991.2190        1.0304530        1.0893806        1.0683545
  8991.7210        1.0257044        1.1037313        1.0867258
  8992.2230        1.0166402        1.1146436        1.1037493
  8992.7260        1.0040969        1.1235062        1.1198458
  8993.1990       0.99135805        1.1294640        1.1356609
  8993.7020       0.97502849        1.1307915        1.1532536
  8994.2040       0.95858359        1.1215648        1.1728152
  8994.7070       0.94541383        1.1000295        1.1892086
  8995.2100       0.93695953        1.0778617        1.1951866
  8995.7120       0.93029900        1.0583797        1.1930533
  8996.2150       0.92832549        1.0373198        1.1869178
  8996.7180       0.93245453        1.0152508        1.1790364
  8997.2210       0.94099801       0.99436784        1.1701602
  8997.7240       0.95587068       0.97427897        1.1598746
  8998.1980       0.97626435       0.95712706        1.1465539
  8998.7010       0.99676571       0.94417545        1.1286694
  8999.2040        1.0152029       0.93501063        1.1104062
  8999.7080        1.0318749       0.92736556        1.0936563
  9000.2110        1.0440366       0.92236945        1.0758320
  9000.7140        1.0489776       0.92080282        1.0609408
  9001.2180        1.0449784       0.92238976        1.0500057
  9001.7210        1.0330184       0.92757048        1.0393721
  9002.2240        1.0187899       0.93330213        1.0287386
  9002.6990        1.0058776       0.93843284        1.0186970
  9003.2030       0.99121646       0.94420243        1.0116238
  9003.7070       0.97718513       0.95017368        1.0050594
  9004.2100       0.96445978       0.95597244       0.99850805
  9004.7140       0.95217458       0.96308179       0.99194369
  9005.2180       0.94190385       0.97062842       0.99076613
  9005.7220       0.93356637       0.97798173       0.98997826
  9006.2260       0.92627325       0.98475253       0.98919038
  9006.7010       0.91894200       0.99125225       0.98844783
  9007.2050       0.91120790       0.99809690       0.99014795
  9007.7090       0.90392294        1.0041753       0.99220157
  9008.2130       0.89811995        1.0082298       0.99425519
  9008.7180       0.89470606        1.0098706       0.99631288
  9009.2220       0.89435164        1.0093346       0.99667857
  9009.6980       0.89423755        1.0084073       0.99691226
  9010.2020       0.89594834        1.0061793       0.99715970
  9012.2200       0.90948552        1.0009158       0.99352082
  9014.2110       0.93146360       0.98695475       0.98727667
  9016.2020       0.96487380       0.94945449       0.97455910
  9018.2230       0.99716795       0.92291141       0.95451497
  9020.2170        1.0293613       0.90574932       0.93225180
  9022.2110        1.0513256       0.89477478       0.91730627
  9024.2060        1.0532234       0.88931429       0.90980860
  9026.2020        1.0275078       0.88662420       0.91106078
  9028.1990       0.99772787       0.88779526       0.92102989
  9030.2260       0.96715684       0.89607351       0.93803422
  9032.2250       0.95089294       0.91074348       0.95586646
  9034.2240       0.94399405       0.92829965       0.97493228
  9036.2250       0.94712841       0.94379678       0.99347716
  9038.1980       0.95556710       0.95923737        1.0100461
  9040.2000       0.96228042       0.97791216        1.0236259
  9042.2040       0.96200210       0.99379426        1.0337470
  9044.2080       0.96206323        1.0043682        1.0425592
  9046.2140       0.96968731        1.0039309        1.0496801
  9048.2200       0.97986432       0.99540970        1.0527192
  9050.1980       0.98343461       0.98930695        1.0507686
  9052.2060       0.98450492       0.98725531        1.0451313
  9054.2150       0.99054559       0.98784679        1.0378181
  9056.2250        1.0020332       0.98816429        1.0314716
  9058.2070        1.0146687       0.98620549        1.0255732
  9060.2190        1.0230512       0.98423929        1.0204720
  9062.2030        1.0311026       0.98455148        1.0156167
  9064.2170        1.0398498       0.98769895        1.0112379
  9066.2020        1.0512423       0.99235213        1.0077910
  9068.2180        1.0631295       0.99815165        1.0048831
  9070.2050        1.0683458        1.0031949        1.0014725
  9072.2230        1.0642880        1.0075296       0.99834883
  9074.2120        1.0530971        1.0107782       0.99561725
  9076.2020        1.0344281        1.0130559       0.99343349
  9078.2230        1.0188918        1.0151653       0.99289127
  9080.2150        1.0038328        1.0166547       0.99384324
  9082.2080       0.99120076        1.0163941       0.99219056
  9084.2020       0.98163583        1.0140498       0.99073363
  9086.2260       0.97616516        1.0089410       0.98944275
  9088.2210       0.97203749        1.0022630       0.98798403
  9090.2180       0.96102936       0.99249885       0.98764837
  9092.2150       0.94987745       0.98443342       0.98796457
  9094.2140       0.93814336       0.97539878       0.98786262
  9096.2130       0.93228142       0.96848712       0.98750068
  9098.2140       0.93330171       0.96226711       0.98729170
  9100.2150       0.94119611       0.95799739       0.98642507
  9102.2170       0.95302279       0.95599674       0.98544416
  9104.2200       0.96857229       0.95556536       0.98482637
  9106.2240       0.98025820       0.95833111       0.98397273
  9108.2000       0.99183648       0.96207232       0.98484557
  9110.2060       0.99952019       0.96686454       0.98748022
  9112.2130        1.0037608       0.97368312       0.98811185
  9114.2200        1.0043565       0.97915019       0.98815527
  9116.2000        1.0038942       0.98367357       0.98677862
  9118.2090        1.0070168       0.98620604       0.98780348
  9120.2200        1.0148339       0.98826993       0.98929027
  9122.2020        1.0300371       0.98976384       0.99158088
  9124.2140        1.0482600       0.99177105       0.99591010
  9126.1980        1.0705341       0.99287568        1.0018290
  9128.2120        1.0837725       0.99415887        1.0051512
  9130.1980        1.0898774       0.99546759        1.0079324
  9132.2140        1.0891029       0.99689744        1.0103327
  9134.2010        1.0842655       0.99924535        1.0111718
  9136.2190        1.0775695        1.0022860        1.0119363
  9138.2080        1.0702761        1.0055623        1.0112372
  9140.1990        1.0581522        1.0077096        1.0108866
  9142.2190        1.0455259        1.0084806        1.0105650
  9144.2110        1.0277003        1.0081721        1.0098795
  9146.2040        1.0111954        1.0067939        1.0086119
  9148.1980       0.99137368        1.0048430        1.0085553
  9150.2220       0.97343779        1.0031048        1.0081853
  9152.2180       0.95626755        1.0009370        1.0087386
  9154.2150       0.94021246       0.99897392        1.0085542
  9156.2120       0.93083727       0.99752093        1.0066732
  9158.2110       0.92717342       0.99614049        1.0039233
  9160.2100       0.93064294       0.99588348        1.0013608
  9162.2100       0.94182366       0.99552118       0.99889896
  9164.2110       0.95502539       0.99609826       0.99795897
  9166.2140       0.97180707       0.99701999       0.99575611
  9168.2170       0.98686794       0.99796123       0.99190049
  9170.2210       0.99955347       0.99884057       0.98907662
  9172.2250        1.0079600       0.99962842       0.98797066
  9174.2010        1.0129673        1.0003528       0.98791707
  9176.2080        1.0152238        1.0010789       0.98708962
  9178.2160        1.0145744        1.0019959       0.98838512
  9180.2240        1.0128089        1.0026910       0.98951262
  9182.2040        1.0113710        1.0036267       0.99217633
  9184.2140        1.0100743        1.0039806       0.99404302
  9186.2250        1.0101755        1.0045949       0.99670116
  9188.2080        1.0094155        1.0048908       0.99752315
  9190.2210        1.0089708        1.0045688       0.99772128
  9192.2050        1.0068529        1.0043427       0.99677457
  9194.2200        1.0043466        1.0040858       0.99672082
  9196.2060        1.0041714        1.0037858       0.99577237
  9198.2230        1.0080342        1.0028550       0.99378042
  9200.2100        1.0144178        1.0025685       0.99397589
  9202.1990        1.0251790        1.0017375       0.99326148
  9204.2190        1.0351093        1.0013204       0.99367900
  9206.2090        1.0435351        1.0000311       0.99336024
  9208.2000        1.0474036       0.99908471       0.99320981
  9210.2230        1.0488967       0.99797857       0.99253537
  9212.2160        1.0487735       0.99697130       0.99217233
  9214.2100        1.0469844       0.99606779       0.99304309
  9216.2050        1.0436939       0.99512487       0.99534235
  9218.2010        1.0396422       0.99462032       0.99693736
  9220.1980        1.0323004       0.99368105       0.99893833
  9222.2260        1.0250138       0.99364578        1.0005771
  9224.2240        1.0155113       0.99349289        1.0014141
  9226.2240        1.0069610       0.99369670        1.0023023
  9228.2240       0.99692803       0.99362308        1.0027062
  9230.2260       0.98933666       0.99401000        1.0018164
  9232.1980       0.98183136       0.99445312        1.0014244
  9234.2010       0.97623613       0.99461998        1.0016149
  9236.2050       0.97347637       0.99463897        1.0009510
  9238.2100       0.97205105       0.99548717       0.99995160
  9240.2160       0.97292908       0.99609077        1.0000002
  9242.2230       0.97498145       0.99670576       0.99975241
  9244.2000       0.97702983       0.99758096        1.0000638
  9246.2090       0.97906575       0.99791509        1.0005312
  9248.2180       0.98026270       0.99873722        1.0008933
  9250.1990       0.98118594       0.99866333        1.0019314
  9252.2100       0.98248159       0.99976568        1.0030006
  9254.2220       0.98419728       0.99946261        1.0039076
  9256.2050       0.98570161       0.99997161        1.0043189
  9258.2190       0.98734211        1.0000187        1.0047109
  9260.2040       0.98946259        1.0004247        1.0047980
  9262.2200       0.99194080        1.0009755        1.0044990
  9264.2060       0.99492711        1.0012329        1.0042946
  9266.2240       0.99763204        1.0017271        1.0038622
  9268.2120        1.0007368        1.0020935        1.0033757
  9270.2010        1.0029105        1.0027532        1.0026505
  9272.2220        1.0058743        1.0021746        1.0013910
  9274.2130        1.0077946        1.0025459        1.0003315
  9276.2050        1.0092975        1.0023473       0.99945303
  9278.1980        1.0109762        1.0026522       0.99892137
  9280.2220        1.0123394        1.0019582       0.99861323
  9282.2160        1.0138500        1.0017667       0.99867930
  9284.2120        1.0150909        1.0018449       0.99891049
  9286.2080        1.0163087        1.0014835       0.99903453
  9288.2050        1.0175133        1.0012363       0.99901564
  9290.2040        1.0186423        1.0011151       0.99933904
  9292.2030        1.0197052        1.0011279       0.99952519
  9294.2030        1.0200903        1.0008916       0.99939805
  9296.2030        1.0205817        1.0009860       0.99942786
  9298.2050        1.0199471        1.0009425       0.99945980
  9300.2080        1.0184836        1.0010417       0.99964525
  9302.2120        1.0156276        1.0007554       0.99956355
  9304.2160        1.0137575        1.0008069       0.99949171
  9306.2210        1.0105283        1.0007895       0.99876490
  9308.1970        1.0080118        1.0007504       0.99823504
  9310.2040        1.0042260        1.0004728       0.99782479
  9312.2120        1.0016375        1.0005934       0.99747516
  9314.2210       0.99866663        1.0004977       0.99673425
  9316.2010       0.99609318        1.0004013       0.99600239
  9318.2110       0.99445329        1.0003135       0.99586026
  9320.2230       0.99333217        1.0002396       0.99583842
  9322.2050       0.99301391        1.0003070       0.99613056
  9324.2180       0.99284240        1.0000084       0.99637420
  9326.2020       0.99310486        1.0001649       0.99682563
  9328.2170       0.99302049        1.0000224       0.99720426
  9330.2030       0.99281807        1.0002493       0.99773914
  9332.2200       0.99136194       0.99997596       0.99804504
  9334.2070       0.98992074        1.0001058       0.99834120
  9336.2260       0.98714860        1.0000983       0.99827682
  9338.2150       0.98532006        1.0002774       0.99835477
  9340.2050       0.98309360        1.0000807       0.99800155
  9342.2270       0.98189504        1.0000871       0.99803070
  9344.2180       0.98182963       0.99998721       0.99805589
  9346.2110       0.98267496        1.0000667       0.99764440
  9348.2040       0.98388453       0.99995597       0.99721571
  9350.1990       0.98519898       0.99987046       0.99724016
  9352.2250       0.98607718        1.0000628       0.99764812
  9354.2210       0.98656950       0.99989426       0.99744778
  9356.2180       0.98756974       0.99992991       0.99734524
  9358.2160       0.98846076       0.99974091       0.99743557
  9360.2150       0.98969454       0.99994284       0.99797738
  9362.2150       0.99071317       0.99956778       0.99821422
  9364.2150       0.99179472       0.99975236       0.99900282
  9366.2170       0.99304035       0.99937859       0.99946040
  9368.2190       0.99441475       0.99913273       0.99978580
  9370.2220       0.99555912       0.99857290        1.0002544
  9372.2270       0.99657705       0.99887448        1.0011813
  9374.2010       0.99759494       0.99864028        1.0013566
  9376.2070       0.99874947       0.99880960        1.0013941
  9378.2140        1.0000443       0.99871416        1.0015779
  9380.2210        1.0008458       0.99907612        1.0026146
  9382.1990        1.0018954       0.99883548        1.0032607
  9384.2080        1.0026882       0.99858243        1.0033425
  9386.2190        1.0035259       0.99858181        1.0031856
  9388.1990        1.0043027       0.99820043        1.0030379
  9390.2110        1.0051059       0.99821935        1.0031700
  9392.2240        1.0057908       0.99788609        1.0030514
  9394.2070        1.0059991       0.99848901        1.0035283
  9396.2220        1.0066445       0.99800402        1.0033525
  9398.2070        1.0069371       0.99815599        1.0031369
  9400.2240        1.0061401       0.99806489        1.0026936
  9402.2100        1.0059968       0.99824691        1.0027108
  9404.1970        1.0053363       0.99815635        1.0025848
  9406.2170        1.0042459       0.99887628        1.0030328
  9408.2060        1.0027985       0.99892635        1.0031435
  9410.2270        1.0016608       0.99894755        1.0032319
  9412.2180        1.0001260       0.99877956        1.0030801
  9414.2090       0.99907309       0.99864832        1.0027316
  9416.2020       0.99801252       0.99843089        1.0019755
  9418.2270       0.99739732       0.99855216        1.0017686
  9420.2210       0.99655039       0.99900272        1.0019656
  9422.2160       0.99616979       0.99942339        1.0019807
  9424.2120       0.99641939       0.99903954        1.0011791
  9426.2090       0.99625159       0.99933941        1.0007113
  9428.2070       0.99624632       0.99957121        1.0007969
  9430.2060       0.99614461       0.99972822        1.0004405
  9432.2060       0.99623340       0.99995163        1.0000529
  9434.2060       0.99598530        1.0001803       0.99942428
  9436.2070       0.99615235        1.0004244       0.99947414
  9438.2100       0.99549407        1.0004381       0.99883201
  9440.2130       0.99539652        1.0006168       0.99912337
  9442.2170       0.99467596        1.0007033       0.99953425
  9444.2220       0.99449938        1.0008929       0.99988399
  9446.1960       0.99336096        1.0009430       0.99920839
  9448.2030       0.99299170        1.0010772       0.99930983
  9450.2110       0.99195339        1.0010934       0.99917170
  9452.2190       0.99174766        1.0014128       0.99937520
  9454.1970       0.99100806        1.0012536       0.99938064
  9456.2070       0.99107322        1.0014555       0.99941558
  9458.2190       0.99096995        1.0013860       0.99933461
  9460.1990       0.99118289        1.0014084       0.99962486
  9462.2120       0.99104480        1.0012867       0.99989791
  9464.2260       0.99104848        1.0014031       0.99996223
  9466.2090       0.99100443        1.0011939        1.0000605
  9468.2240       0.99100423        1.0011082        1.0000139
  9470.2090       0.99105841        1.0009424        1.0004943
  9472.2270       0.99119937        1.0010152        1.0012748
  9474.2130       0.99141512        1.0010526        1.0018291
  9476.2010       0.99184976        1.0009241        1.0020081
  9478.2210       0.99221659        1.0008175        1.0019126
  9480.2100       0.99284662        1.0008522        1.0017499
  9482.2000       0.99354516        1.0007736        1.0017085
  9484.2230       0.99375760        1.0007488        1.0016524
  9486.2150       0.99470459        1.0007616        1.0016673
  9488.2070       0.99541836        1.0006822        1.0014476
  9490.2010       0.99609807        1.0008018        1.0014543
  9492.2270       0.99679598        1.0005874        1.0011850
  9494.2220       0.99735170        1.0007143        1.0010816
  9496.2190       0.99821645        1.0006911        1.0008661
  9498.2160       0.99884905        1.0008648        1.0010436
  9500.2140       0.99949877        1.0007837        1.0008109
  9502.2130        1.0000326        1.0009508        1.0006117
  9504.2120        1.0007117        1.0008880        1.0003184
  9506.2130        1.0010791        1.0010035        1.0001456
  9508.2140        1.0010129        1.0009696        1.0001894
  9510.2170        1.0010242        1.0011012        1.0005545
  9512.2200        1.0005956        1.0010773        1.0005791
  9514.2240        1.0006589        1.0013656        1.0008602
  9516.1970        1.0004678        1.0012460        1.0006192
  9518.2030       0.99999623        1.0016040       0.99993409
  9520.2100       0.99943031        1.0015800       0.99943139
  9522.2170       0.99888159        1.0018458       0.99902676
  9524.2260       0.99787091        1.0016661       0.99880630
  9526.2030       0.99745154        1.0018267       0.99896765
  9528.2140       0.99686496        1.0018745       0.99864227
  9530.2250       0.99673823        1.0021392       0.99858150
  9532.2050       0.99605202        1.0019425       0.99843249
  9534.2180       0.99607910        1.0019425       0.99871395
  9536.1990       0.99578536        1.0019751       0.99899159
  9538.2140       0.99591835        1.0020226       0.99921533
  9540.1970       0.99572152        1.0020947       0.99903241
  9542.2140       0.99569728        1.0022947       0.99963711
  9544.1990       0.99564753        1.0020130        1.0001900
  9546.2170       0.99562593        1.0026694        1.0003384
  9548.2040       0.99558828        1.0025708        1.0004414
  9550.2240       0.99579387        1.0023184        1.0006076
  9552.2130       0.99575372        1.0022644        1.0011217
  9554.2020       0.99616124        1.0024152        1.0015053
  9556.2250       0.99650340        1.0019265        1.0011208
  9558.2160       0.99663666        1.0017862        1.0010917
  9560.2080       0.99663597        1.0015872        1.0012437
  9562.2010       0.99699982        1.0013202        1.0013126
  9564.2270       0.99717198        1.0011505        1.0014725
  9566.2220       0.99708323        1.0012518        1.0016381
  9568.2170       0.99725041        1.0012589        1.0017700
  9570.2140       0.99754856        1.0007538        1.0018770
  9572.2110       0.99729785        1.0009273        1.0015830
  9574.2090       0.99785951        1.0008556        1.0014244
  9576.2080       0.99787935        1.0006892        1.0015494
  9578.2080       0.99807102        1.0007492        1.0018549
  9580.2090       0.99816890        1.0004179        1.0021097
  9582.2110       0.99858062       0.99993063        1.0023590
  9584.2130       0.99886979       0.99936936        1.0025261
  9586.2170       0.99953995       0.99844279        1.0027337
  9588.2210       0.99954670       0.99845087        1.0023696
  9590.2260       0.99989904       0.99865837        1.0019506
  9592.2000        1.0009951       0.99717543        1.0018943
  9594.2070        1.0013444       0.99710130        1.0017643
  9596.2140        1.0012960       0.99742794        1.0016976
  9598.2230        1.0013664       0.99813033        1.0018175
  9600.2000        1.0024806       0.99722248        1.0016645
  9602.2100        1.0028526       0.99709601        1.0011661
  9604.2220        1.0033795       0.99676690        1.0009066
  9606.2010        1.0035249       0.99680975        1.0008286
  9608.2140        1.0037507       0.99707387        1.0007681
  9610.2280        1.0045098       0.99616558        1.0008033
  9612.2100        1.0047804       0.99630865        1.0002501
  9614.2260        1.0049066       0.99664024        1.0003482
  9616.2100        1.0049784       0.99657998        1.0005185
  9618.2270        1.0050409       0.99676611        1.0004865
  9620.2130        1.0050385       0.99707494        1.0003395
  9622.1990        1.0052965       0.99713850        1.0004152
  9624.2190        1.0058284       0.99717904       0.99977682
  9626.2070        1.0051830       0.99779501       0.99955841
  9628.1960        1.0059054       0.99759111       0.99977927
  9630.2190        1.0056072       0.99805005       0.99975591
  9632.2100        1.0058639       0.99814402       0.99941263
  9634.2010        1.0059319       0.99830765       0.99904085
  9636.2270        1.0056818       0.99852130       0.99866096
  9638.2200        1.0061739       0.99843082       0.99894318
  9640.2140        1.0058590       0.99883894       0.99859754
  9642.2090        1.0057870       0.99913546       0.99801409
  9644.2050        1.0050618       0.99966288       0.99774352
  9646.2020        1.0045726        1.0001124       0.99779397
  9648.1990        1.0044203        1.0002976       0.99799328
  9650.1980        1.0046195        1.0003409       0.99778294
  9652.1970        1.0040770        1.0008345       0.99765676
  9654.1970        1.0043496        1.0007468       0.99750878
  9656.1980        1.0038818        1.0011342       0.99718181
  9658.2000        1.0022313        1.0024362       0.99716721
  9660.2030        1.0028171        1.0020264       0.99716313
  9662.2070        1.0030208        1.0022430       0.99729219
  9664.2120        1.0030681        1.0022883       0.99712412
  9666.2170        1.0031454        1.0024537       0.99701087
  9668.2230        1.0030883        1.0023131       0.99664764
  9670.1970        1.0034075        1.0023594       0.99629791
  9672.2050        1.0032398        1.0023843       0.99557452
  9674.2140        1.0028387        1.0028801       0.99534726
  9676.2240        1.0023956        1.0030995       0.99545559
  9678.2010        1.0019995        1.0034607       0.99544300
  9680.2130        1.0023666        1.0033229       0.99528977
  9682.2250        1.0023581        1.0034907       0.99613286
  9684.2050        1.0030108        1.0031408       0.99601111
  9686.2190        1.0030514        1.0032453       0.99547762
  9688.2010        1.0033331        1.0030798       0.99558325
  9690.2170        1.0037519        1.0031815       0.99549649
  9692.2000        1.0036476        1.0030923       0.99510250
  9694.2180        1.0040777        1.0032607       0.99491006
  9696.2030        1.0036533        1.0033319       0.99452122
  9698.2220        1.0041829        1.0034054       0.99415260
  9700.2090        1.0041998        1.0034122       0.99385075
  9702.1970        1.0048980        1.0034425       0.99411193
  9704.2190        1.0050024        1.0035280       0.99454378
  9706.2080        1.0053493        1.0036481       0.99506629
  9708.1990        1.0050991        1.0037356       0.99508222
  9710.2230        1.0053117        1.0039432       0.99566368
  9712.2150        1.0050582        1.0040341       0.99575191
  9714.2080        1.0051174        1.0043174       0.99618856
  9716.2020        1.0050836        1.0043143       0.99685816
  9718.1960        1.0053539        1.0045572       0.99968479
  9720.2250        1.0054744        1.0047332        1.0014778
  9722.2210        1.0055760        1.0049776        1.0016720
  9724.2190        1.0057294        1.0050503        1.0024802
  9726.2170        1.0056650        1.0053410        1.0023172
  9728.2150        1.0058458        1.0053510        1.0032261
  9730.2150        1.0057617        1.0056018        1.0028405
  9732.2160        1.0059052        1.0055385        1.0030727
  9734.2170        1.0062226        1.0058137        1.0044694
  9736.2190        1.0065074        1.0058987        1.0049775
  9738.2230        1.0063977        1.0060741        1.0048203
  9740.2270        1.0064869        1.0061783        1.0043853
  9742.1980        1.0069542        1.0063100        1.0041296
  9744.2040        1.0069554        1.0064421        1.0042212
  9746.2100        1.0070169        1.0065977        1.0044218
  9748.2180        1.0070952        1.0065214        1.0036281
  9750.2260        1.0073610        1.0066813        1.0035704
  9752.2010        1.0077324        1.0068165        1.0037956
  9754.2110        1.0080539        1.0069021        1.0046720
  9756.2220        1.0079794        1.0069668        1.0042914
  9758.2000        1.0081462        1.0071021        1.0047765
  9760.2130        1.0085425        1.0072067        1.0053158
  9762.2260        1.0088059        1.0072733        1.0050990
  9764.2070        1.0089136        1.0073060        1.0050139
  9766.2220        1.0088377        1.0073213        1.0045783
  9768.2040        1.0093366        1.0074782        1.0050284
  9770.2210        1.0090955        1.0075639        1.0043078
